 Al Density=2.6989 Thickness=1. microns
 Photon Energy (eV), Transmission
    5000.0      0.95095    
    5040.8      0.95205    
    5081.6      0.95312    
    5122.4      0.95416    
    5163.3      0.95517    
    5204.1      0.95615    
    5244.9      0.95710    
    5285.7      0.95802    
    5326.5      0.95892    
    5367.3      0.95979    
    5408.2      0.96064    
    5449.0      0.96147    
    5489.8      0.96227    
    5530.6      0.96305    
    5571.4      0.96381    
    5612.2      0.96455    
    5653.1      0.96527    
    5693.9      0.96597    
    5734.7      0.96665    
    5775.5      0.96732    
    5816.3      0.96796    
    5857.1      0.96859    
    5898.0      0.96921    
    5938.8      0.96980    
    5979.6      0.97039    
    6020.4      0.97096    
    6061.2      0.97151    
    6102.0      0.97205    
    6142.9      0.97258    
    6183.7      0.97309    
    6224.5      0.97359    
    6265.3      0.97408    
    6306.1      0.97456    
    6346.9      0.97502    
    6387.8      0.97548    
    6428.6      0.97592    
    6469.4      0.97636    
    6510.2      0.97678    
    6551.0      0.97719    
    6591.8      0.97759    
    6632.7      0.97799    
    6673.5      0.97837    
    6714.3      0.97875    
    6755.1      0.97912    
    6795.9      0.97948    
    6836.7      0.97983    
    6877.6      0.98017    
    6918.4      0.98050    
    6959.2      0.98083    
    7000.0      0.98115    
    7040.8      0.98147    
    7081.6      0.98177    
    7122.4      0.98207    
    7163.3      0.98237    
    7204.1      0.98265    
    7244.9      0.98294    
    7285.7      0.98321    
    7326.5      0.98348    
    7367.3      0.98374    
    7408.2      0.98400    
    7449.0      0.98425    
    7489.8      0.98450    
    7530.6      0.98474    
    7571.4      0.98498    
    7612.2      0.98521    
    7653.1      0.98544    
    7693.9      0.98566    
    7734.7      0.98588    
    7775.5      0.98610    
    7816.3      0.98631    
    7857.1      0.98651    
    7898.0      0.98671    
    7938.8      0.98691    
    7979.6      0.98711    
    8020.4      0.98730    
    8061.2      0.98748    
    8102.0      0.98766    
    8142.9      0.98784    
    8183.7      0.98802    
    8224.5      0.98819    
    8265.3      0.98836    
    8306.1      0.98853    
    8346.9      0.98869    
    8387.8      0.98885    
    8428.6      0.98901    
    8469.4      0.98916    
    8510.2      0.98931    
    8551.0      0.98946    
    8591.8      0.98961    
    8632.7      0.98975    
    8673.5      0.98989    
    8714.3      0.99003    
    8755.1      0.99016    
    8795.9      0.99029    
    8836.7      0.99043    
    8877.6      0.99055    
    8918.4      0.99068    
    8959.2      0.99080    
    9000.0      0.99092    
    9040.8      0.99104    
    9081.6      0.99116    
    9122.4      0.99128    
    9163.3      0.99139    
    9204.1      0.99150    
    9244.9      0.99161    
    9285.7      0.99172    
    9326.5      0.99182    
    9367.3      0.99193    
    9408.2      0.99203    
    9449.0      0.99213    
    9489.8      0.99223    
    9530.6      0.99233    
    9571.4      0.99242    
    9612.2      0.99252    
    9653.1      0.99261    
    9693.9      0.99270    
    9734.7      0.99279    
    9775.5      0.99288    
    9816.3      0.99297    
    9857.1      0.99305    
    9898.0      0.99313    
    9938.8      0.99322    
    9979.6      0.99330    
    10020.      0.99338    
    10061.      0.99346    
    10102.      0.99353    
    10143.      0.99361    
    10184.      0.99369    
    10224.      0.99376    
    10265.      0.99383    
    10306.      0.99390    
    10347.      0.99397    
    10388.      0.99404    
    10429.      0.99411    
    10469.      0.99418    
    10510.      0.99425    
    10551.      0.99431    
    10592.      0.99438    
    10633.      0.99444    
    10673.      0.99450    
    10714.      0.99456    
    10755.      0.99462    
    10796.      0.99468    
    10837.      0.99474    
    10878.      0.99480    
    10918.      0.99486    
    10959.      0.99491    
    11000.      0.99497    
    11041.      0.99502    
    11082.      0.99508    
    11122.      0.99513    
    11163.      0.99518    
    11204.      0.99524    
    11245.      0.99529    
    11286.      0.99534    
    11327.      0.99539    
    11367.      0.99543    
    11408.      0.99548    
    11449.      0.99553    
    11490.      0.99558    
    11531.      0.99562    
    11571.      0.99567    
    11612.      0.99571    
    11653.      0.99576    
    11694.      0.99580    
    11735.      0.99584    
    11776.      0.99589    
    11816.      0.99593    
    11857.      0.99597    
    11898.      0.99601    
    11939.      0.99605    
    11980.      0.99609    
    12020.      0.99613    
    12061.      0.99617    
    12102.      0.99621    
    12143.      0.99624    
    12184.      0.99628    
    12224.      0.99632    
    12265.      0.99635    
    12306.      0.99639    
    12347.      0.99642    
    12388.      0.99646    
    12429.      0.99649    
    12469.      0.99653    
    12510.      0.99656    
    12551.      0.99659    
    12592.      0.99663    
    12633.      0.99666    
    12673.      0.99669    
    12714.      0.99672    
    12755.      0.99675    
    12796.      0.99678    
    12837.      0.99681    
    12878.      0.99684    
    12918.      0.99687    
    12959.      0.99690    
    13000.      0.99693    
    13041.      0.99696    
    13082.      0.99699    
    13122.      0.99702    
    13163.      0.99704    
    13204.      0.99707    
    13245.      0.99710    
    13286.      0.99712    
    13327.      0.99715    
    13367.      0.99717    
    13408.      0.99720    
    13449.      0.99722    
    13490.      0.99725    
    13531.      0.99727    
    13571.      0.99730    
    13612.      0.99732    
    13653.      0.99735    
    13694.      0.99737    
    13735.      0.99739    
    13776.      0.99742    
    13816.      0.99744    
    13857.      0.99746    
    13898.      0.99748    
    13939.      0.99750    
    13980.      0.99753    
    14020.      0.99755    
    14061.      0.99757    
    14102.      0.99759    
    14143.      0.99761    
    14184.      0.99763    
    14224.      0.99765    
    14265.      0.99767    
    14306.      0.99769    
    14347.      0.99771    
    14388.      0.99773    
    14429.      0.99775    
    14469.      0.99777    
    14510.      0.99778    
    14551.      0.99780    
    14592.      0.99782    
    14633.      0.99784    
    14673.      0.99786    
    14714.      0.99787    
    14755.      0.99789    
    14796.      0.99791    
    14837.      0.99793    
    14878.      0.99794    
    14918.      0.99796    
    14959.      0.99798    
    15000.      0.99799    
    15041.      0.99801    
    15082.      0.99802    
    15122.      0.99804    
    15163.      0.99806    
    15204.      0.99807    
    15245.      0.99809    
    15286.      0.99810    
    15327.      0.99812    
    15367.      0.99813    
    15408.      0.99815    
    15449.      0.99816    
    15490.      0.99818    
    15531.      0.99819    
    15571.      0.99820    
    15612.      0.99822    
    15653.      0.99823    
    15694.      0.99824    
    15735.      0.99826    
    15776.      0.99827    
    15816.      0.99828    
    15857.      0.99830    
    15898.      0.99831    
    15939.      0.99832    
    15980.      0.99834    
    16020.      0.99835    
    16061.      0.99836    
    16102.      0.99837    
    16143.      0.99839    
    16184.      0.99840    
    16224.      0.99841    
    16265.      0.99842    
    16306.      0.99843    
    16347.      0.99844    
    16388.      0.99846    
    16429.      0.99847    
    16469.      0.99848    
    16510.      0.99849    
    16551.      0.99850    
    16592.      0.99851    
    16633.      0.99852    
    16673.      0.99853    
    16714.      0.99854    
    16755.      0.99855    
    16796.      0.99857    
    16837.      0.99858    
    16878.      0.99859    
    16918.      0.99860    
    16959.      0.99861    
    17000.      0.99862    
    17041.      0.99863    
    17082.      0.99864    
    17122.      0.99864    
    17163.      0.99865    
    17204.      0.99866    
    17245.      0.99867    
    17286.      0.99868    
    17327.      0.99869    
    17367.      0.99870    
    17408.      0.99871    
    17449.      0.99872    
    17490.      0.99873    
    17531.      0.99874    
    17571.      0.99874    
    17612.      0.99875    
    17653.      0.99876    
    17694.      0.99877    
    17735.      0.99878    
    17776.      0.99879    
    17816.      0.99880    
    17857.      0.99880    
    17898.      0.99881    
    17939.      0.99882    
    17980.      0.99883    
    18020.      0.99884    
    18061.      0.99884    
    18102.      0.99885    
    18143.      0.99886    
    18184.      0.99887    
    18224.      0.99887    
    18265.      0.99888    
    18306.      0.99889    
    18347.      0.99890    
    18388.      0.99890    
    18429.      0.99891    
    18469.      0.99892    
    18510.      0.99892    
    18551.      0.99893    
    18592.      0.99894    
    18633.      0.99895    
    18673.      0.99895    
    18714.      0.99896    
    18755.      0.99897    
    18796.      0.99897    
    18837.      0.99898    
    18878.      0.99899    
    18918.      0.99899    
    18959.      0.99900    
    19000.      0.99900    
    19041.      0.99901    
    19082.      0.99902    
    19122.      0.99902    
    19163.      0.99903    
    19204.      0.99904    
    19245.      0.99904    
    19286.      0.99905    
    19327.      0.99905    
    19367.      0.99906    
    19408.      0.99907    
    19449.      0.99907    
    19490.      0.99908    
    19531.      0.99908    
    19571.      0.99909    
    19612.      0.99909    
    19653.      0.99910    
    19694.      0.99910    
    19735.      0.99911    
    19776.      0.99912    
    19816.      0.99912    
    19857.      0.99913    
    19898.      0.99913    
    19939.      0.99914    
    19980.      0.99914    
    20020.      0.99915    
    20061.      0.99915    
    20102.      0.99916    
    20143.      0.99916    
    20184.      0.99917    
    20224.      0.99917    
    20265.      0.99918    
    20306.      0.99918    
    20347.      0.99919    
    20388.      0.99919    
    20429.      0.99920    
    20469.      0.99920    
    20510.      0.99921    
    20551.      0.99921    
    20592.      0.99922    
    20633.      0.99922    
    20673.      0.99922    
    20714.      0.99923    
    20755.      0.99923    
    20796.      0.99924    
    20837.      0.99924    
    20878.      0.99925    
    20918.      0.99925    
    20959.      0.99925    
    21000.      0.99926    
    21041.      0.99926    
    21082.      0.99927    
    21122.      0.99927    
    21163.      0.99928    
    21204.      0.99928    
    21245.      0.99928    
    21286.      0.99929    
    21327.      0.99929    
    21367.      0.99930    
    21408.      0.99930    
    21449.      0.99930    
    21490.      0.99931    
    21531.      0.99931    
    21571.      0.99932    
    21612.      0.99932    
    21653.      0.99932    
    21694.      0.99933    
    21735.      0.99933    
    21776.      0.99933    
    21816.      0.99934    
    21857.      0.99934    
    21898.      0.99934    
    21939.      0.99935    
    21980.      0.99935    
    22020.      0.99936    
    22061.      0.99936    
    22102.      0.99936    
    22143.      0.99937    
    22184.      0.99937    
    22224.      0.99937    
    22265.      0.99938    
    22306.      0.99938    
    22347.      0.99938    
    22388.      0.99939    
    22429.      0.99939    
    22469.      0.99939    
    22510.      0.99940    
    22551.      0.99940    
    22592.      0.99940    
    22633.      0.99940    
    22673.      0.99941    
    22714.      0.99941    
    22755.      0.99941    
    22796.      0.99942    
    22837.      0.99942    
    22878.      0.99942    
    22918.      0.99943    
    22959.      0.99943    
    23000.      0.99943    
    23041.      0.99943    
    23082.      0.99944    
    23122.      0.99944    
    23163.      0.99944    
    23204.      0.99945    
    23245.      0.99945    
    23286.      0.99945    
    23327.      0.99945    
    23367.      0.99946    
    23408.      0.99946    
    23449.      0.99946    
    23490.      0.99947    
    23531.      0.99947    
    23571.      0.99947    
    23612.      0.99947    
    23653.      0.99948    
    23694.      0.99948    
    23735.      0.99948    
    23776.      0.99948    
    23816.      0.99949    
    23857.      0.99949    
    23898.      0.99949    
    23939.      0.99949    
    23980.      0.99950    
    24020.      0.99950    
    24061.      0.99950    
    24102.      0.99950    
    24143.      0.99951    
    24184.      0.99951    
    24224.      0.99951    
    24265.      0.99951    
    24306.      0.99952    
    24347.      0.99952    
    24388.      0.99952    
    24429.      0.99952    
    24469.      0.99952    
    24510.      0.99953    
    24551.      0.99953    
    24592.      0.99953    
    24633.      0.99953    
    24673.      0.99954    
    24714.      0.99954    
    24755.      0.99954    
    24796.      0.99954    
    24837.      0.99954    
    24878.      0.99955    
    24918.      0.99955    
    24959.      0.99955    
    25000.      0.99955    